{
    "resourceType": "Bundle",
    "type": "transaction",
    "entry":
    [
        {
            "fullUrl": "urn:uuid:be51e0d2-783d-4e21-b16b-1a4cd7403515",
            "resource":
            {
                "resourceType": "Organization",
                "id": "be51e0d2-783d-4e21-b16b-1a4cd7403515",
                "meta":
                {
                    "tag":
                    [
                        {
                            "system": "https://gematik.de/fhir/directory/CodeSystem/Origin",
                            "code": "ldap"
                        }
                    ],
                    "profile":
                    [
                        "https://gematik.de/fhir/directory/StructureDefinition/OrganizationDirectory"
                    ]
                },
                "identifier":
                [
                    {
                        "system": "https://gematik.de/fhir/sid/telematik-id",
                        "value": "9-2.58.00000050"
                    }
                ],
                "active": true,
                "type":
                [
                    {
                        "coding":
                        [
                            {
                                "code": "1.2.276.0.76.4.58",
                                "system": "https://gematik.de/fhir/directory/CodeSystem/OrganizationProfessionOID",
                                "display": "Betriebsstätte gematik"
                            }
                        ]
                    }
                ],
                "name": "gematik GmbH",
                "alias":
                [
                    "gematik"
                ],
                "address":
                [
                    {
                        "text": "gematik GmbH\nFriedrichstr. 136, \n10117 Berlin",
                        "line":
                        [
                            "Friedrichstr. 136"
                        ],
                        "city": "Berlin",
                        "district": "Mitte",
                        "state": "Berlin",
                        "postalCode": "10117",
                        "country": "DE"
                    }
                ],
                "contact":
                [
                    {
                        "purpose":
                        {
                            "coding":
                            [
                                {
                                    "code": "ADMIN",
                                    "system": "http://terminology.hl7.org/CodeSystem/contactentity-type"
                                }
                            ]
                        },
                        "name":
                        {
                            "text": "gematik ITSM"
                        },
                        "telecom":
                        [
                            {
                                "system": "email",
                                "value": "betrieb@gematik.de"
                            }
                        ]
                    }
                ]
            },
            "request":
            {
                "method": "PUT",
                "url": "Organization?identifier=https://gematik.de/fhir/sid/telematik-id|9-2.58.00000050"
            }
        },
        {
            "fullUrl": "urn:uuid:151f1697-7512-4e21-9466-1b75207475d8",
            "resource":
            {
                "resourceType": "Organization",
                "id": "151f1697-7512-4e21-9466-1b75207475d8",
                "meta":
                {
                    "tag":
                    [
                        {
                            "system": "https://gematik.de/fhir/directory/CodeSystem/Origin",
                            "code": "ldap"
                        }
                    ],
                    "profile":
                    [
                        "https://gematik.de/fhir/directory/StructureDefinition/OrganizationDirectory"
                    ]
                },
                "identifier":
                [
                    {
                        "system": "https://gematik.de/fhir/sid/telematik-id",
                        "value": "9-2.58.00000040"
                    }
                ],
                "active": true,
                "type":
                [
                    {
                        "coding":
                        [
                            {
                                "code": "1.2.276.0.76.4.54",
                                "system": "https://gematik.de/fhir/directory/CodeSystem/OrganizationProfessionOID",
                                "display": "Öffentliche Apotheke"
                            }
                        ]
                    }
                ],
                "name": "gematik Apotheke",
                "alias":
                [
                    "Apotheke"
                ],
                "address":
                [
                    {
                        "text": "gematik Apotheke\nFriedrichstr. 136, \n10117 Berlin",
                        "line":
                        [
                            "Friedrichstr. 136"
                        ],
                        "city": "Berlin",
                        "district": "Mitte",
                        "state": "Berlin",
                        "postalCode": "10117",
                        "country": "DE"
                    }
                ],
                "contact":
                [
                    {
                        "purpose":
                        {
                            "coding":
                            [
                                {
                                    "code": "ADMIN",
                                    "system": "http://terminology.hl7.org/CodeSystem/contactentity-type"
                                }
                            ]
                        },
                        "name":
                        {
                            "text": "gematik ITSM"
                        },
                        "telecom":
                        [
                            {
                                "system": "email",
                                "value": "betrieb@gematik.de"
                            }
                        ]
                    }
                ]
            },
            "request":
            {
                "method": "PUT",
                "url": "Organization?identifier=https://gematik.de/fhir/sid/telematik-id|9-2.58.00000040"
            }
        },
        {
            "fullUrl": "urn:uuid:498c345f-31f5-4da6-9f04-00fa2bc8af7c",
            "resource":
            {
                "resourceType": "Practitioner",
                "id": "498c345f-31f5-4da6-9f04-00fa2bc8af7c",
                "meta":
                {
                    "tag":
                    [
                        {
                            "system": "https://gematik.de/fhir/directory/CodeSystem/Origin",
                            "code": "ldap"
                        }
                    ],
                    "profile":
                    [
                        "https://gematik.de/fhir/directory/StructureDefinition/PractitionerDirectory"
                    ]
                },
                "identifier":
                [
                    {
                        "system": "https://gematik.de/fhir/sid/telematik-id",
                        "value": "1-1.58.00000060"
                    },
                    {
                        "system": "https://fhir.kbv.de/NamingSystem/KBV_NS_Base_ANR",
                        "value": "123456789"
                    }
                ],
                "active": true,
                "qualification":
                [
                    {
                        "code":
                        {
                            "coding":
                            [
                                {
                                    "code": "1.2.276.0.76.4.31",
                                    "system": "https://gematik.de/fhir/directory/CodeSystem/PractitionerProfessionOID"
                                }
                            ]
                        }
                    },
                    {
                        "code":
                        {
                            "coding":
                            [
                                {
                                    "code": "010",
                                    "system": "urn:oid:1.2.276.0.76.5.514",
                                    "display": "FA Allgemeinmedizin"
                                }
                            ]
                        }
                    },
                    {
                        "code":
                        {
                            "coding":
                            [
                                {
                                    "code": "523",
                                    "system": "urn:oid:1.2.276.0.76.5.514",
                                    "display": "FA Innere Medizin und (SP) Gastroenterologie"
                                }
                            ]
                        }
                    }
                ],
                "name":
                [
                    {
                        "prefix":
                        [
                            "Dr."
                        ],
                        "given":
                        [
                            "Max",
                            "Manfred"
                        ],
                        "family": "Musterman",
                        "text": "Dr. Max Manfred Mustermann"
                    }
                ]
            },
            "request":
            {
                "method": "PUT",
                "url": "Practitioner?identifier=https://gematik.de/fhir/sid/telematik-id|1-1.58.00000060"
            }
        },
        {
            "fullUrl": "urn:uuid:3856402c-7636-4fbd-98bd-d278852b8e88",
            "resource":
            {
                "resourceType": "PractitionerRole",
                "id": "3856402c-7636-4fbd-98bd-d278852b8e88",
                "practitioner":
                {
                    "reference": "urn:uuid:498c345f-31f5-4da6-9f04-00fa2bc8af7c"
                },
                "organization":
                {
                    "reference": "urn:uuid:be51e0d2-783d-4e21-b16b-1a4cd7403515"
                },
                "active": true
            },
            "request":
            {
                "method": "POST",
                "url": "PractitionerRole"
            }
        },
        {
            "fullUrl": "urn:uuid:7b510b8a-b255-4827-b753-3d70a0b64552",
            "resource":
            {
                "resourceType": "Medication",
                "id": "7b510b8a-b255-4827-b753-3d70a0b64552",
                "meta":
                {
                    "profile":
                    [
                        "https://gematik.de/fhir/epa-medication/StructureDefinition/epa-medication"
                    ]
                },
                "identifier":
                [
                    {
                        "system": "https://gematik.de/fhir/epa-medication/sid/epa-medication-unique-identifier",
                        "value": "5CA9B89A31D81FFF6869E6A93B192C03C7F715FC4A568FB060630DD639F94EF1"
                    }
                ],
                "extension":
                [
                    {
                        "url": "https://gematik.de/fhir/epa-medication/StructureDefinition/rx-prescription-process-identifier-extension",
                        "valueIdentifier":
                        {
                            "system": "https://gematik.de/fhir/epa-medication/sid/rx-prescription-process-identifier",
                            "value": "160.153.303.257.459_20250122"
                        }
                    },
                    {
                        "url": "https://gematik.de/fhir/epa-medication/StructureDefinition/epa-medication-type-extension",
                        "valueCoding":
                        {
                            "code": "781405001",
                            "system": "http://snomed.info/sct",
                            "version": "http://snomed.info/sct/11000274103/version/20240515",
                            "display": "Medicinal product package (product)"
                        }
                    },
                    {
                        "url": "https://gematik.de/fhir/epa-medication/StructureDefinition/drug-category-extension",
                        "valueCoding":
                        {
                            "system": "https://gematik.de/fhir/terminology/CodeSystem/epa-drug-category-cs",
                            "code": "00"
                        }
                    },
                    {
                        "url": "https://gematik.de/fhir/epa-medication/StructureDefinition/medication-id-vaccine-extension",
                        "valueBoolean": false
                    },
                    {
                        "url": "http://fhir.de/StructureDefinition/normgroesse",
                        "valueCode": "N1"
                    }
                ],
                "code":
                {
                    "coding":
                    [
                        {
                            "system": "http://fhir.de/CodeSystem/ifa/pzn",
                            "code": "06313728"
                        }
                    ],
                    "text": "Sumatriptan-1a Pharma 100 mg Tabletten"
                },
                "form":
                {
                    "coding":
                    [
                        {
                            "system": "https://fhir.kbv.de/CodeSystem/KBV_CS_SFHIR_KBV_DARREICHUNGSFORM",
                            "code": "TAB"
                        }
                    ]
                },
                "amount":
                {
                    "numerator":
                    {
                        "extension":
                        [
                            {
                                "url": "https://gematik.de/fhir/epa-medication/StructureDefinition/medication-total-quantity-formulation-extension",
                                "valueString": "20 St."
                            }
                        ],
                        "value": 20,
                        "unit": "St"
                    },
                    "denominator":
                    {
                        "value": 1
                    }
                },
                "batch":
                {
                    "lotNumber": "AB1234CDE",
                    "expirationDate": "2026-12-31"
                }
            },
            "request":
            {
                "method": "POST",
                "url": "Medication"
            }
        },
        {
            "fullUrl": "urn:uuid:bb91cde8-0426-4f4b-a766-5d818d0605bd",
            "resource":
            {
                "resourceType": "MedicationRequest",
                "id": "bb91cde8-0426-4f4b-a766-5d818d0605bd",
                "meta":
                {
                    "versionId": "1",
                    "lastUpdated": "2025-01-22T14:43:33.244Z",
                    "profile":
                    [
                        "https://gematik.de/fhir/epa-medication/StructureDefinition/epa-medication-request"
                    ]
                },
                "dispenseRequest":
                {
                    "quantity":
                    {
                        "system": "http://unitsofmeasure.org",
                        "code": "{Package}",
                        "value": 1
                    }
                },
                "identifier":
                [
                    {
                        "system": "https://gematik.de/fhir/epa-medication/sid/rx-prescription-process-identifier",
                        "value": "160.153.303.257.459_20250122"
                    }
                ],
                "extension":
                [
                    {
                        "extension":
                        [
                            {
                                "url": "indicator",
                                "valueBoolean": false
                            }
                        ],
                        "url": "https://gematik.de/fhir/epa-medication/StructureDefinition/multiple-prescription-extension"
                    }
                ],
                "status": "completed",
                "intent": "filler-order",
                "medicationReference":
                {
                    "reference": "urn:uuid:7b510b8a-b255-4827-b753-3d70a0b64552"
                },
                "subject":
                {
                    "identifier":
                    {
                        "type":
                        {
                            "coding":
                            [
                                {
                                    "code": "KVZ10",
                                    "system": "http://fhir.de/CodeSystem/identifier-type-de-basis",
                                    "display": "Krankenversichertennummer"
                                }
                            ]
                        },
                        "value": "X110411319",
                        "system": "http://fhir.de/sid/gkv/kvid-10"
                    }
                },
                "authoredOn": "2025-01-22",
                "requester":
                {
                    "reference": "urn:uuid:3856402c-7636-4fbd-98bd-d278852b8e88"
                },
                "dosageInstruction":
                [
                    {
                        "text": "1-0-0-0"
                    }
                ],
                "substitution":
                {
                    "allowedBoolean": true
                }
            },
            "request":
            {
                "method": "POST",
                "url": "MedicationRequest"
            }
        },
        {
            "fullUrl": "urn:uuid:4e6e1623-778e-44a3-b208-8479f5339e43",
            "resource":
            {
                "resourceType": "MedicationDispense",
                "id": "4e6e1623-778e-44a3-b208-8479f5339e43",
                "meta":
                {
                    "profile":
                    [
                        "https://gematik.de/fhir/epa-medication/StructureDefinition/epa-medication-dispense"
                    ]
                },
                "extension":
                [
                    {
                        "url": "https://gematik.de/fhir/epa-medication/StructureDefinition/rx-prescription-process-identifier-extension",
                        "valueIdentifier":
                        {
                            "system": "https://gematik.de/fhir/epa-medication/sid/rx-prescription-process-identifier",
                            "value": "160.153.303.257.459_20250122"
                        }
                    }
                ],
                "status": "completed",
                "medicationReference":
                {
                    "reference": "urn:uuid:7b510b8a-b255-4827-b753-3d70a0b64552"
                },
                "subject":
                {
                    "identifier":
                    {
                        "system": "http://fhir.de/sid/gkv/kvid-10",
                        "value": "X110411319"
                    }
                },
                "performer":
                [
                    {
                        "actor":
                        {
                            "reference": "urn:uuid:151f1697-7512-4e21-9466-1b75207475d8"
                        }
                    }
                ],
                "authorizingPrescription":
                [
                    {
                        "reference": "urn:uuid:bb91cde8-0426-4f4b-a766-5d818d0605bd"
                    }
                ],
                "whenHandedOver": "2025-01-22",
                "dosageInstruction":
                [
                    {
                        "text": "1-0-0-1"
                    }
                ],
                "substitution":
                {
                    "wasSubstituted": false
                }
            },
            "request":
            {
                "method": "POST",
                "url": "MedicationDispense"
            }
        },
        {
            "fullUrl": "urn:uuid:29669ec1-1c06-42d7-823e-a622306e8139",
            "resource":
            {
                "resourceType": "Medication",
                "id": "29669ec1-1c06-42d7-823e-a622306e8139",
                "meta":
                {
                    "profile":
                    [
                        "https://gematik.de/fhir/epa-medication/StructureDefinition/epa-medication"
                    ]
                },
                "identifier":
                [
                    {
                        "system": "https://gematik.de/fhir/epa-medication/sid/epa-medication-unique-identifier",
                        "value": "5CA9B89A31D81FFF6869E6A93B192C03C7F715FC4A568FB060630DD639F94EF1"
                    }
                ],
                "extension":
                [
                    {
                        "url": "https://gematik.de/fhir/epa-medication/StructureDefinition/rx-prescription-process-identifier-extension",
                        "valueIdentifier":
                        {
                            "system": "https://gematik.de/fhir/epa-medication/sid/rx-prescription-process-identifier",
                            "value": "161.153.303.257.459_20250215"
                        }
                    },
                    {
                        "url": "https://gematik.de/fhir/epa-medication/StructureDefinition/epa-medication-type-extension",
                        "valueCoding":
                        {
                            "code": "781405001",
                            "system": "http://snomed.info/sct",
                            "version": "http://snomed.info/sct/11000274103/version/20240515",
                            "display": "Medicinal product package (product)"
                        }
                    },
                    {
                        "url": "https://gematik.de/fhir/epa-medication/StructureDefinition/drug-category-extension",
                        "valueCoding":
                        {
                            "system": "https://gematik.de/fhir/terminology/CodeSystem/epa-drug-category-cs",
                            "code": "00"
                        }
                    },
                    {
                        "url": "https://gematik.de/fhir/epa-medication/StructureDefinition/medication-id-vaccine-extension",
                        "valueBoolean": false
                    },
                    {
                        "url": "http://fhir.de/StructureDefinition/normgroesse",
                        "valueCode": "N1"
                    }
                ],
                "code":
                {
                    "coding":
                    [
                        {
                            "system": "http://fhir.de/CodeSystem/ifa/pzn",
                            "code": "06313728"
                        }
                    ],
                    "text": "Sumatriptan-1a Pharma 100 mg Tabletten"
                },
                "form":
                {
                    "coding":
                    [
                        {
                            "system": "https://fhir.kbv.de/CodeSystem/KBV_CS_SFHIR_KBV_DARREICHUNGSFORM",
                            "code": "TAB"
                        }
                    ]
                },
                "amount":
                {
                    "numerator":
                    {
                        "extension":
                        [
                            {
                                "url": "https://gematik.de/fhir/epa-medication/StructureDefinition/medication-total-quantity-formulation-extension",
                                "valueString": "20 St."
                            }
                        ],
                        "value": 20,
                        "unit": "St"
                    },
                    "denominator":
                    {
                        "value": 1
                    }
                },
                "batch":
                {
                    "lotNumber": "XXX111XXX",
                    "expirationDate": "2027-02-15"
                }
            },
            "request":
            {
                "method": "POST",
                "url": "Medication"
            }
        },
        {
            "fullUrl": "urn:uuid:2382f15b-3041-43ac-bd45-941ca62477e3",
            "resource":
            {
                "resourceType": "MedicationRequest",
                "id": "2382f15b-3041-43ac-bd45-941ca62477e3",
                "meta":
                {
                    "versionId": "1",
                    "lastUpdated": "2025-01-22T14:43:33.244Z",
                    "profile":
                    [
                        "https://gematik.de/fhir/epa-medication/StructureDefinition/epa-medication-request"
                    ]
                },
                "dispenseRequest":
                {
                    "quantity":
                    {
                        "system": "http://unitsofmeasure.org",
                        "code": "{Package}",
                        "value": 1
                    }
                },
                "identifier":
                [
                    {
                        "system": "https://gematik.de/fhir/epa-medication/sid/rx-prescription-process-identifier",
                        "value": "161.153.303.257.459_20250215"
                    }
                ],
                "extension":
                [
                    {
                        "extension":
                        [
                            {
                                "url": "indicator",
                                "valueBoolean": false
                            }
                        ],
                        "url": "https://gematik.de/fhir/epa-medication/StructureDefinition/multiple-prescription-extension"
                    }
                ],
                "status": "completed",
                "intent": "filler-order",
                "medicationReference":
                {
                    "reference": "urn:uuid:29669ec1-1c06-42d7-823e-a622306e8139"
                },
                "subject":
                {
                    "identifier":
                    {
                        "type":
                        {
                            "coding":
                            [
                                {
                                    "code": "KVZ10",
                                    "system": "http://fhir.de/CodeSystem/identifier-type-de-basis",
                                    "display": "Krankenversichertennummer"
                                }
                            ]
                        },
                        "value": "X110411319",
                        "system": "http://fhir.de/sid/gkv/kvid-10"
                    }
                },
                "authoredOn": "2025-02-15",
                "requester":
                {
                    "reference": "urn:uuid:3856402c-7636-4fbd-98bd-d278852b8e88"
                },
                "dosageInstruction":
                [
                    {
                        "text": "1-0-0-0"
                    }
                ],
                "substitution":
                {
                    "allowedBoolean": true
                }
            },
            "request":
            {
                "method": "POST",
                "url": "MedicationRequest"
            }
        },
        {
            "fullUrl": "urn:uuid:9b250358-28a2-4bf3-ad3d-52291f89920e",
            "resource":
            {
                "resourceType": "MedicationDispense",
                "id": "9b250358-28a2-4bf3-ad3d-52291f89920e",
                "meta":
                {
                    "profile":
                    [
                        "https://gematik.de/fhir/epa-medication/StructureDefinition/epa-medication-dispense"
                    ]
                },
                "extension":
                [
                    {
                        "url": "https://gematik.de/fhir/epa-medication/StructureDefinition/rx-prescription-process-identifier-extension",
                        "valueIdentifier":
                        {
                            "system": "https://gematik.de/fhir/epa-medication/sid/rx-prescription-process-identifier",
                            "value": "161.153.303.257.459_20250215"
                        }
                    }
                ],
                "status": "completed",
                "medicationReference":
                {
                    "reference": "urn:uuid:29669ec1-1c06-42d7-823e-a622306e8139"
                },
                "subject":
                {
                    "identifier":
                    {
                        "system": "http://fhir.de/sid/gkv/kvid-10",
                        "value": "X110411319"
                    }
                },
                "performer":
                [
                    {
                        "actor":
                        {
                            "reference": "urn:uuid:151f1697-7512-4e21-9466-1b75207475d8"
                        }
                    }
                ],
                "authorizingPrescription":
                [
                    {
                        "reference": "urn:uuid:2382f15b-3041-43ac-bd45-941ca62477e3"
                    }
                ],
                "whenHandedOver": "2025-02-16",
                "dosageInstruction":
                [
                    {
                        "text": "1-0-0-0"
                    }
                ],
                "substitution":
                {
                    "wasSubstituted": false
                }
            },
            "request":
            {
                "method": "POST",
                "url": "MedicationDispense"
            }
        },
        {
            "fullUrl": "urn:uuid:06b8f981-b9d7-4170-abe8-682ea9083126",
            "resource":
            {
                "resourceType": "Medication",
                "id": "06b8f981-b9d7-4170-abe8-682ea9083126",
                "meta":
                {
                    "versionId": "1",
                    "lastUpdated": "2025-08-22T14:43:33.244Z",
                    "profile":
                    [
                        "https://gematik.de/fhir/epa-medication/StructureDefinition/epa-medication"
                    ]
                },
                "extension":
                [
                    {
                        "url": "https://gematik.de/fhir/epa-medication/StructureDefinition/epa-medication-type-extension",
                        "valueCoding":
                        {
                            "code": "781405001",
                            "system": "http://snomed.info/sct",
                            "version": "http://snomed.info/sct/11000274103/version/20240515",
                            "display": "Medicinal product package (product)"
                        }
                    },
                    {
                        "url": "https://gematik.de/fhir/epa-medication/StructureDefinition/rx-prescription-process-identifier-extension",
                        "valueIdentifier":
                        {
                            "system": "https://gematik.de/fhir/epa-medication/sid/rx-prescription-process-identifier",
                            "value": "162.153.303.257.459_20250301"
                        }
                    }
                ],
                "identifier":
                [
                    {
                        "system": "https://gematik.de/fhir/epa-medication/sid/epa-medication-unique-identifier",
                        "value": "F78C093639F9C1AD216341E77BE87E265B6A04BF4C830E4C010676146D035CA6"
                    }
                ],
                "code":
                {
                    "coding":
                    [
                        {
                            "system": "http://fhir.de/CodeSystem/ifa/pzn",
                            "code": "08545331",
                            "display": "IBU-ratiopharm 800mg akut Schmerztabletten"
                        },
                        {
                            "system": "http://fhir.de/CodeSystem/bfarm/atc",
                            "code": "M01AE01",
                            "display": "Ibuprofen",
                            "version": "2022"
                        }
                    ]
                },
                "form":
                {
                    "coding":
                    [
                        {
                            "system": "https://fhir.kbv.de/CodeSystem/KBV_CS_SFHIR_KBV_DARREICHUNGSFORM",
                            "code": "TAB",
                            "display": "Tabletten",
                            "version": "1.10"
                        },
                        {
                            "system": "http://standardterms.edqm.eu",
                            "code": "12200",
                            "display": "Tablet"
                        },
                        {
                            "system": "http://snomed.info/sct",
                            "code": "385055001",
                            "version": "http://snomed.info/sct/11000274103/version/20240515",
                            "display": "Tablet (basic dose form)"
                        }
                    ]
                },
                "ingredient":
                [
                    {
                        "itemCodeableConcept":
                        {
                            "coding":
                            [
                                {
                                    "system": "http://snomed.info/sct",
                                    "code": "387207008",
                                    "version": "http://snomed.info/sct/11000274103/version/20240515",
                                    "display": "Ibuprofen (substance)"
                                }
                            ]
                        },
                        "strength":
                        {
                            "numerator":
                            {
                                "value": 400,
                                "code": "mg",
                                "system": "http://unitsofmeasure.org",
                                "unit": "MilliGram"
                            },
                            "denominator":
                            {
                                "value": 1,
                                "code": "{Tablet}",
                                "system": "http://unitsofmeasure.org",
                                "unit": "Tablet"
                            }
                        }
                    }
                ],
                "status": "active",
                "amount":
                {
                    "numerator":
                    {
                        "value": 50,
                        "code": "{Tablet}",
                        "system": "http://unitsofmeasure.org",
                        "unit": "Tablet"
                    },
                    "denominator":
                    {
                        "value": 1,
                        "code": "{Package}",
                        "system": "http://unitsofmeasure.org",
                        "unit": "Package"
                    }
                },
                "batch":
                {
                    "lotNumber": "YYY111YYY",
                    "expirationDate": "2027-03-01"
                }
            },
            "request":
            {
                "method": "POST",
                "url": "Medication"
            }

        },
        {
            "fullUrl": "urn:uuid:854812d4-31ac-419b-b71a-eefd6ec37c40",
            "resource":
            {
                "resourceType": "MedicationRequest",
                "id": "854812d4-31ac-419b-b71a-eefd6ec37c40",
                "meta":
                {
                    "versionId": "1",
                    "lastUpdated": "2025-01-22T14:43:33.244Z",
                    "profile":
                    [
                        "https://gematik.de/fhir/epa-medication/StructureDefinition/epa-medication-request"
                    ]
                },
                "dispenseRequest":
                {
                    "quantity":
                    {
                        "system": "http://unitsofmeasure.org",
                        "code": "{Package}",
                        "value": 1
                    }
                },
                "identifier":
                [
                    {
                        "system": "https://gematik.de/fhir/epa-medication/sid/rx-prescription-process-identifier",
                        "value": "162.153.303.257.459_20250301"
                    }
                ],
                "extension":
                [
                    {
                        "extension":
                        [
                            {
                                "url": "indicator",
                                "valueBoolean": false
                            }
                        ],
                        "url": "https://gematik.de/fhir/epa-medication/StructureDefinition/multiple-prescription-extension"
                    }
                ],
                "status": "completed",
                "intent": "filler-order",
                "medicationReference":
                {
                    "reference": "urn:uuid:06b8f981-b9d7-4170-abe8-682ea9083126"
                },
                "subject":
                {
                    "identifier":
                    {
                        "type":
                        {
                            "coding":
                            [
                                {
                                    "code": "KVZ10",
                                    "system": "http://fhir.de/CodeSystem/identifier-type-de-basis",
                                    "display": "Krankenversichertennummer"
                                }
                            ]
                        },
                        "value": "X110411319",
                        "system": "http://fhir.de/sid/gkv/kvid-10"
                    }
                },
                "authoredOn": "2025-03-01",
                "requester":
                {
                    "reference": "urn:uuid:3856402c-7636-4fbd-98bd-d278852b8e88"
                },
                "dosageInstruction":
                [
                    {
                        "text": "1-0-1-0"
                    }
                ],
                "substitution":
                {
                    "allowedBoolean": true
                }
            },
            "request":
            {
                "method": "POST",
                "url": "MedicationRequest"
            }
        },
        {
            "fullUrl": "urn:uuid:96385844-2d6e-414b-a3cf-e0a44ca2b0bf",
            "resource":
            {
                "resourceType": "MedicationDispense",
                "id": "96385844-2d6e-414b-a3cf-e0a44ca2b0bf",
                "meta":
                {
                    "profile":
                    [
                        "https://gematik.de/fhir/epa-medication/StructureDefinition/epa-medication-dispense"
                    ]
                },
                "extension":
                [
                    {
                        "url": "https://gematik.de/fhir/epa-medication/StructureDefinition/rx-prescription-process-identifier-extension",
                        "valueIdentifier":
                        {
                            "system": "https://gematik.de/fhir/epa-medication/sid/rx-prescription-process-identifier",
                            "value": "162.153.303.257.459_20250301"
                        }
                    }
                ],
                "status": "completed",
                "medicationReference":
                {
                    "reference": "urn:uuid:06b8f981-b9d7-4170-abe8-682ea9083126"
                },
                "subject":
                {
                    "identifier":
                    {
                        "system": "http://fhir.de/sid/gkv/kvid-10",
                        "value": "X110411319"
                    }
                },
                "performer":
                [
                    {
                        "actor":
                        {
                            "reference": "urn:uuid:151f1697-7512-4e21-9466-1b75207475d8"
                        }
                    }
                ],
                "authorizingPrescription":
                [
                    {
                        "reference": "urn:uuid:854812d4-31ac-419b-b71a-eefd6ec37c40"
                    }
                ],
                "whenHandedOver": "2025-03-02",
                "dosageInstruction":
                [
                    {
                        "text": "1-0-1-0"
                    }
                ],
                "substitution":
                {
                    "wasSubstituted": false
                }
            },
            "request":
            {
                "method": "POST",
                "url": "MedicationDispense"
            }
        }
    ]
}